Folder: Photovoltaics/vXXX/data

File: Reflection.csv
crystalline_polished,,crystalline_nonpolished,,amorphous,,crystalline_coated,,crystalline_coated2,,crystalline_pyramid,,crystalline_black,,
Wavelength (nm),%R,Wavelength (nm),%R,Wavelength (nm),%R,Wavelength (nm),%R,Wavelength (nm),%R,Wavelength (nm),%R,Wavelength (nm),%R,
2000,77.488,2000,75.2949,2000,87.8195,2000,35.8579,2000,26.0814,2000,22.6166,2000,62.1996,
1984,77.4073,1984,75.187,1984,84.2238,1984,36.039,1984,25.9329,1984,22.4153,1984,61.4661,
1968,77.5895,1968,75.2469,1968,79.5773,1968,36.13,1968,26.0037,1968,22.4235,1968,61.5315,
1952,77.6381,1952,75.5114,1952,73.2465,1952,36.2285,1952,25.8367,1952,22.2076,1952,61.0765,
1936,77.631,1936,75.4222,1936,64.6457,1936,36.285,1936,25.7923,1936,22.4435,1936,61.2192,
1920,77.5657,1920,75.229,1920,53.9697,1920,36.3624,1920,25.8867,1920,22.3137,1920,61.0677,
1904,77.5573,1904,75.2038,1904,43.7496,1904,36.2841,1904,26.068,1904,22.8471,1904,61.0392,
1888,77.4564,1888,75.1476,1888,37.8912,1888,36.3944,1888,25.9579,1888,23.2242,1888,61.4249,
1872,77.2156,1872,75.0488,1872,38.8388,1872,36.4757,1872,26.1452,1872,23.3317,1872,61.4398,
1856,77.2269,1856,75.0327,1856,46.1389,1856,36.5267,1856,26.1024,1856,23.4874,1856,61.4147,
1840,77.0539,1840,74.7676,1840,55.3795,1840,36.4384,1840,25.9971,1840,23.4256,1840,60.5258,
1824,77.1918,1824,74.7313,1824,64.6423,1824,36.3704,1824,25.8842,1824,23.5168,1824,59.9777,
1808,77.2257,1808,74.8635,1808,71.7729,1808,36.3903,1808,25.7689,1808,23.5634,1808,59.7923,
1792,77.3033,1792,74.9541,1792,77.2609,1792,36.514,1792,25.8685,1792,23.5283,1792,59.7346,
1776,77.2339,1776,74.8628,1776,81.0773,1776,36.4427,1776,25.8372,1776,23.5086,1776,59.1166,
1760,77.1884,1760,74.8606,1760,83.8925,1760,36.3262,1760,25.8822,1760,23.5603,1760,58.1825,
1744,77.073,1744,74.8371,1744,85.7227,1744,36.0908,1744,25.8605,1744,23.5496,1744,56.84,
1728,77.0578,1728,74.827,1728,86.9885,1728,35.8305,1728,25.8397,1728,23.6419,1728,55.328,
1712,77.1348,1712,74.81,1712,87.6554,1712,35.9929,1712,25.8354,1712,23.6626,1712,55.2671,
1696,76.9952,1696,74.7336,1696,87.8801,1696,36.1534,1696,25.8422,1696,23.929,1696,56.2281,
1680,77.0499,1680,74.7726,1680,87.3957,1680,37.3709,1680,25.9789,1680,24.3869,1680,60.6726,
1664,77.0827,1664,74.7271,1664,86.5578,1664,38.0791,1664,25.9786,1664,24.6539,1664,62.9403,
1648,77.1885,1648,74.7048,1648,85.1462,1648,38.3023,1648,25.9613,1648,24.887,1648,63.48,
1632,77.1353,1632,74.731,1632,83.1138,1632,38.3704,1632,25.9732,1632,25.0097,1632,63.5157,
1616,77.1499,1616,74.7661,1616,80.3601,1616,38.5542,1616,26.0401,1616,25.1795,1616,63.7735,
1600,77.1611,1600,74.7768,1600,76.7857,1600,38.6772,1600,25.9747,1600,25.2891,1600,63.8909,
1584,77.1502,1584,74.7539,1584,72.2533,1584,38.7786,1584,25.9081,1584,25.3591,1584,63.9956,
1568,77.1161,1568,74.7835,1568,67.0057,1568,38.8792,1568,25.9808,1568,25.5401,1568,64.0351,
1552,77.1104,1552,74.6733,1552,60.8882,1552,38.9658,1552,25.955,1552,25.6864,1552,64.0921,
1536,77.0256,1536,74.6252,1536,54.1548,1536,39.0959,1536,25.9591,1536,25.8072,1536,64.1169,
1520,77.1057,1520,74.7218,1520,46.6565,1520,39.1809,1520,25.9109,1520,25.9419,1520,63.9828,
1504,77.0137,1504,74.6514,1504,38.2528,1504,39.2254,1504,25.9339,1504,25.9925,1504,63.8381,
1488,77.0976,1488,74.712,1488,29.3514,1488,39.3453,1488,25.9064,1488,26.13,1488,63.7413,
1472,77.1613,1472,74.7836,1472,21.3636,1472,39.5103,1472,25.9442,1472,26.3007,1472,63.7052,
1456,77.087,1456,74.6613,1456,17.896,1456,39.5082,1456,25.9011,1456,26.4303,1456,63.5007,
1440,77.0929,1440,74.6098,1440,22.0702,1440,39.5541,1440,25.9126,1440,26.5744,1440,63.2685,
1424,77.0592,1424,74.5409,1424,33.152,1424,39.5406,1424,25.9061,1424,26.8463,1424,62.9765,
1408,76.8993,1408,74.4364,1408,46.2733,1408,39.5251,1408,25.9115,1408,27.1257,1408,62.6312,
1392,76.7596,1392,74.336,1392,57.7144,1392,39.4403,1392,25.8616,1392,27.3165,1392,62.2352,
1376,76.7008,1376,74.2729,1376,66.4572,1376,39.7616,1376,25.8478,1376,27.5271,1376,62.8131,
1360,76.7535,1360,74.2361,1360,72.1247,1360,40.2843,1360,25.8934,1360,27.7514,1360,63.5708,
1344,76.9037,1344,74.4378,1344,76.0654,1344,40.5839,1344,25.9644,1344,28.1464,1344,64.4478,
1328,76.8504,1328,74.3193,1328,77.7321,1328,40.6901,1328,25.8844,1328,28.3082,1328,64.4581,
1312,76.8503,1312,74.2882,1312,78.032,1312,40.8534,1312,25.9094,1312,28.5168,1312,64.4872,
1296,76.8705,1296,74.2809,1296,76.9238,1296,40.9718,1296,25.9467,1296,28.6964,1296,64.4514,
1280,76.884,1280,74.3519,1280,74.4119,1280,41.1558,1280,25.8746,1280,28.9108,1280,64.4815,
1264,76.7511,1264,74.1875,1264,70.0768,1264,41.2026,1264,25.8668,1264,29.0608,1264,64.2411,
1248,76.7545,1248,74.1762,1248,63.9251,1248,41.1941,1248,25.8332,1248,29.2377,1248,64.1518,
1232,76.6082,1232,74.0978,1232,55.9737,1232,41.1572,1232,25.6643,1232,29.3777,1232,63.6064,
1216,76.3847,1216,73.8727,1216,47.9652,1216,40.858,1216,25.6121,1216,29.3973,1216,62.5539,
1200,76.2459,1200,73.7372,1200,43.2041,1200,40.7554,1200,25.5119,1200,29.5033,1200,61.8125,
1184,75.7014,1184,73.28,1184,45.5633,1184,40.8141,1184,25.2905,1184,29.5935,1184,61.1154,
1168,73.3821,1168,70.9654,1168,53.9155,1168,41.0815,1168,24.8873,1168,28.4959,1168,56.7661,
1152,70.3839,1152,68.0755,1152,62.8425,1152,40.6025,1152,24.0722,1152,26.3967,1152,49.7621,
1136,66.6374,1136,64.5389,1136,69.6169,1136,39.9164,1136,23.0421,1136,24.003,1136,42.7253,
1120,62.3032,1120,60.3722,1120,74.1107,1120,38.583,1120,21.7339,1120,21.4646,1120,36.3883,
1104,57.3849,1104,55.5994,1104,76.8988,1104,36.7174,1104,20.2503,1104,19.1993,1104,31.0522,
1088,51.9734,1088,50.3493,1088,78.0924,1088,34.2401,1088,18.5563,1088,17.0339,1088,26.3632,
1072,46.3689,1072,44.7303,1072,77.36,1072,30.9838,1072,16.7275,1072,15.1311,1072,22.1744,
1056,40.63,1056,38.882,1056,74.5841,1056,26.4074,1056,14.5459,1056,13.5202,1056,18.2265,
1040,36.4691,1040,34.828,1040,69.5195,1040,20.9518,1040,12.4003,1040,12.2446,1040,14.7809,
1024,35.0052,1024,33.3751,1024,63.0753,1024,16.5538,1024,10.8134,1024,11.6428,1024,12.3504,
1008,34.8125,1008,33.0844,1008,60.3857,1008,13.8109,1008,9.80095,1008,11.3702,1008,10.9566,
992,34.7998,992,33.1237,992,67.1792,992,12.4022,992,9.17265,992,11.2279,992,10.1646,
976,34.7873,976,33.1089,976,76.5394,976,11.8065,976,8.84567,976,11.1661,976,9.66209,
960,34.9649,960,33.2277,960,81.8431,960,11.6466,960,8.65627,960,11.0598,960,9.44231,
944,34.9983,944,33.3104,944,83.7269,944,11.5381,944,8.58553,944,10.8739,944,9.30124,
928,35.0728,928,33.3852,928,82.4632,928,11.2814,928,8.58076,928,10.6459,928,9.17259,
912,35.1929,912,33.4036,912,77.4718,912,10.855,912,8.48913,912,10.5748,912,9.07069,
896,35.258,896,33.5129,896,69.7579,896,10.4851,896,8.27562,896,10.4955,896,8.94191,
880,35.3796,880,33.5754,880,68.0916,880,10.1112,880,8.04577,880,10.3607,880,8.70071,
864,35.6638,864,33.6523,864,76.2328,864,9.76632,864,8.11903,864,10.3902,864,8.68956,
848,35.7233,848,33.6556,848,82.0003,848,9.48962,848,7.89573,848,10.4092,848,8.52631,
832,35.9346,832,34.0081,832,83.3884,832,8.94417,832,7.94326,832,10.1272,832,8.68023,
816,35.6463,816,34.3978,816,82.265,816,8.47833,816,7.63617,816,10.6369,816,8.535,
800,36.0274,800,33.9588,800,76.2896,800,8.53353,800,7.46331,800,10.0969,800,8.7366,
784,35.6717,784,33.6436,784,72.7074,784,5.47202,784,6.79437,784,10.2521,784,7.97044,
768,35.7757,768,33.7077,768,86.3526,768,5.17103,768,6.92652,768,10.1859,768,7.8529,
752,35.8388,752,33.7252,752,87.2703,752,4.93278,752,7.07858,752,10.0841,752,7.7075,
736,36.1008,736,33.9414,736,74.1643,736,4.75795,736,7.37523,736,10.0505,736,7.6046,
720,36.1941,720,33.9969,720,64.5163,720,4.60125,720,7.63778,720,10.0137,720,7.45415,
704,36.3068,704,34.1545,704,76.5323,704,4.56811,704,7.986938,704,9.91887,704,7.34352,
688,36.5721,688,34.3279,688,70.2433,688,4.63747,688,8.43016,688,9.90586,688,7.24409,
672,36.7752,672,34.5057,672,42.5681,672,4.8391,672,8.9786,672,9.90735,672,7.16546,
656,37.026,656,34.6847,656,55.3165,656,5.18717,656,9.58585,656,9.93201,656,7.09782,
640,37.3803,640,34.9537,640,48.4618,640,5.75269,640,10.331,640,10.0391,640,7.07379,
624,37.6743,624,35.2193,624,37.8171,624,6.50717,624,11.1694,624,10.1215,624,7.08622,
608,38.0504,608,35.5076,608,43.7154,608,7.42371,608,12.0443,608,10.1954,608,7.06339,
592,38.43,592,35.8339,592,39.9158,592,8.59959,592,12.9623,592,10.3546,592,7.0427,
576,38.8959,576,36.2597,576,42.111,576,10.0211,576,14.0308,576,10.446,576,7.11101,
560,39.3252,560,36.6158,560,41.9776,560,11.6843,560,15.0448,560,10.5336,560,7.12318,
544,39.8149,544,37.0389,544,42.6753,544,13.605,544,16.076,544,10.6346,544,7.17095,
528,40.3727,528,37.4839,528,43.2293,528,15.757,528,17.0986,528,10.7828,528,7.20136,
512,41.0377,512,38.1086,512,43.8113,512,18.2355,512,18.0754,512,10.949,512,7.26227,
496,41.7818,496,38.8296,496,44.4867,496,20.9441,496,18.9789,496,11.108,496,7.29509,
480,42.6872,480,39.6066,480,45.1297,480,23.9123,480,19.7874,480,11.3383,480,7.38349,
464,43.7565,464,40.5303,464,45.8454,464,27.1829,464,20.4803,464,11.5899,464,7.48235,
448,45.1064,448,41.812,448,46.6408,448,30.7017,448,20.9288,448,11.8801,448,7.60238,
432,46.8053,432,43.4,432,47.4176,432,34.5118,432,21.2205,432,12.283,432,7.79773,
416,48.9957,416,45.4292,416,48.2854,416,38.6715,416,21.1255,416,12.8598,416,8.04802,
400,52.5301,400,48.6408,400,49.5191,400,43.7473,400,20.7302,400,13.7287,400,8.44257,
384,57.8719,384,53.7531,384,50.8513,384,50.0911,384,19.5105,384,15.4263,384,9.06314,
368,64.9579,368,60.7006,368,52.7318,368,55.2346,368,16.3069,368,17.6419,368,9.85324,
352,62.4186,352,58.02388,352,54.3996,352,55.1761,352,11.957,352,17.57,352,9.17128,
336,61.9192,336,57.1279,336,55.9661,336,53.2855,336,9.03064,336,17.2725,336,9.00625,
320,63.8858,320,59.2511,320,57.7895,320,50.3696,320,7.65288,320,17.5261,320,9.23022,
304,69.0913,304,64.4345,304,59.3072,304,48.0749,304,8.65242,304,19.0718,304,9.76726,
300,71.7954,300,66.8341,300,59.4876,300,48.0949,300,9.2607,300,20.4562,300,10.0291,